File: tiles_tensile.csv
w_c,nca,cca_fine_mod,cca_dens,cca_abs_cap ,cca_spec_gr,cca,cca_rep_perc,cfa_mean_part_size,cfa_nfa,cfa_rep_perc, nfa_nfa,age,ft
0.4,64.26,0,0,0,0,0,0,0,0,0,45.68,14,1.44623
0.4,64.26,0,0,0,0,0,0,0,0,0,45.68,14,1.49906
0.4,64.26,0,0,0,0,0,0,0,0,0,45.68,14,1.57547
0.4,64.26,0,0,0,0,0,0,0,0,0,45.68,14,1.57201
0.4,64.26,0,0,0,0,0,0,0,0,0,45.68,14,1.42035
0.4,64.26,0,0,0,0,0,0,0,0,0,45.68,14,1.46447
0.4,64.26,0,0,0,0,0,0,0,0,0,45.68,28,2.34811
0.4,64.26,0,0,0,0,0,0,0,0,0,45.68,28,2.37827
0.4,64.26,0,0,0,0,0,0,0,0,0,45.68,28,2.40657
0.4,64.26,0,0,0,0,0,0,0,0,0,45.68,28,2.37739
0.4,64.26,0,0,0,0,0,0,0,0,0,45.68,28,2.29528
0.4,64.26,0,0,0,0,0,0,0,0,0,45.68,28,2.32736
0.4,64.26,0,0,0,0,0,0,0,0,0,45.68,60,2.35849
0.4,64.26,0,0,0,0,0,0,0,0,0,45.68,60,2.35849
0.4,64.26,0,0,0,0,0,0,0,0,0,45.68,60,2.35849
0.4,64.26,0,0,0,0,0,0,0,0,0,45.68,60,3.14465
0.4,64.26,0,0,0,0,0,0,0,0,0,45.68,60,2.7044
0.4,64.26,0,0,0,0,0,0,0,0,0,45.68,60,2.83019
0.45,57.83,5.5,1114.15,14.23,1.92,6.42,10,0,0,0,45.68,14,1.36447
0.45,57.83,5.5,1114.15,14.23,1.92,6.42,10,0,0,0,45.68,14,0.795472
0.45,57.83,5.5,1114.15,14.23,1.92,6.42,10,0,0,0,45.68,14,3.13774
0.45,57.83,5.5,1114.15,14.23,1.92,6.42,10,0,0,0,45.68,14,2.16226
0.45,57.83,5.5,1114.15,14.23,1.92,6.42,10,0,0,0,45.68,14,1.56195
0.45,57.83,5.5,1114.15,14.23,1.92,6.42,10,0,0,0,45.68,14,3.02321
0.45,57.83,5.5,1114.15,14.23,1.92,6.42,10,0,0,0,45.68,28,3.14219
0.45,57.83,5.5,1114.15,14.23,1.92,6.42,10,0,0,0,45.68,28,2.3123
0.45,57.83,5.5,1114.15,14.23,1.92,6.42,10,0,0,0,45.68,28,2.52801
0.45,57.83,5.5,1114.15,14.23,1.92,6.42,10,0,0,0,45.68,28,2.96875
0.45,57.83,5.5,1114.15,14.23,1.92,6.42,10,0,0,0,45.68,28,3.04884
0.45,57.83,5.5,1114.15,14.23,1.92,6.42,10,0,0,0,45.68,28,3.06653
0.45,57.83,5.5,1114.15,14.23,1.92,6.42,10,0,0,0,45.68,60,3.14465
0.45,57.83,5.5,1114.15,14.23,1.92,6.42,10,0,0,0,45.68,60,3.30189
0.45,57.83,5.5,1114.15,14.23,1.92,6.42,10,0,0,0,45.68,60,3.33333
0.45,57.83,5.5,1114.15,14.23,1.92,6.42,10,0,0,0,45.68,60,3.77358
0.45,57.83,5.5,1114.15,14.23,1.92,6.42,10,0,0,0,45.68,60,3.14465
0.45,57.83,5.5,1114.15,14.23,1.92,6.42,10,0,0,0,45.68,60,3.1761
0.42,51.41,5.5,1114.15,14.23,1.92,12.85,20,0,0,0,45.68,14,2.60106
0.42,51.41,5.5,1114.15,14.23,1.92,12.85,20,0,0,0,45.68,14,3.28796
0.42,51.41,5.5,1114.15,14.23,1.92,12.85,20,0,0,0,45.68,14,3.14893
0.42,51.41,5.5,1114.15,14.23,1.92,12.85,20,0,0,0,45.68,14,1.04107
0.42,51.41,5.5,1114.15,14.23,1.92,12.85,20,0,0,0,45.68,14,1.53875
0.42,51.41,5.5,1114.15,14.23,1.92,12.85,20,0,0,0,45.68,14,2.64249
0.42,51.41,5.5,1114.15,14.23,1.92,12.85,20,0,0,0,45.68,28,3.04884
0.42,51.41,5.5,1114.15,14.23,1.92,12.85,20,0,0,0,45.68,28,3.06653
0.42,51.41,5.5,1114.15,14.23,1.92,12.85,20,0,0,0,45.68,28,2.40664
0.42,51.41,5.5,1114.15,14.23,1.92,12.85,20,0,0,0,45.68,28,2.4656
0.42,51.41,5.5,1114.15,14.23,1.92,12.85,20,0,0,0,45.68,28,3.77849
0.42,51.41,5.5,1114.15,14.23,1.92,12.85,20,0,0,0,45.68,28,3.56475
0.42,51.41,5.5,1114.15,14.23,1.92,12.85,20,0,0,0,45.68,60,3.56069
0.42,51.41,5.5,1114.15,14.23,1.92,12.85,20,0,0,0,45.68,60,3.42767
0.42,51.41,5.5,1114.15,14.23,1.92,12.85,20,0,0,0,45.68,60,3.34119
0.42,51.41,5.5,1114.15,14.23,1.92,12.85,20,0,0,0,45.68,60,3.45912
0.42,51.41,5.5,1114.15,14.23,1.92,12.85,20,0,0,0,45.68,60,3.33208
0.42,51.41,5.5,1114.15,14.23,1.92,12.85,20,0,0,0,45.68,60,3.49057
0.44,44.98,5.5,1114.15,14.23,1.92,19.27,30,0,0,0,45.68,14,2.02925
0.44,44.98,5.5,1114.15,14.23,1.92,19.27,30,0,0,0,45.68,14,2.08553
0.44,44.98,5.5,1114.15,14.23,1.92,19.27,30,0,0,0,45.68,14,2.26604
0.44,44.98,5.5,1114.15,14.23,1.92,19.27,30,0,0,0,45.68,14,2.29748
0.44,44.98,5.5,1114.15,14.23,1.92,19.27,30,0,0,0,45.68,14,2.32893
0.44,44.98,5.5,1114.15,14.23,1.92,19.27,30,0,0,0,45.68,14,2.08553
0.44,44.98,5.5,1114.15,14.23,1.92,19.27,30,0,0,0,45.68,28,3.42865
0.44,44.98,5.5,1114.15,14.23,1.92,19.27,30,0,0,0,45.68,28,2.99528
0.44,44.98,5.5,1114.15,14.23,1.92,19.27,30,0,0,0,45.68,28,2.02339
0.44,44.98,5.5,1114.15,14.23,1.92,19.27,30,0,0,0,45.68,28,3.72
0.44,44.98,5.5,1114.15,14.23,1.92,19.27,30,0,0,0,45.68,28,3.17657
0.44,44.98,5.5,1114.15,14.23,1.92,19.27,30,0,0,0,45.68,28,1.98162
0.44,44.98,5.5,1114.15,14.23,1.92,19.27,30,0,0,0,45.68,60,3.45912
0.44,44.98,5.5,1114.15,14.23,1.92,19.27,30,0,0,0,45.68,60,3.30189
0.44,44.98,5.5,1114.15,14.23,1.92,19.27,30,0,0,0,45.68,60,3.35597
0.44,44.98,5.5,1114.15,14.23,1.92,19.27,30,0,0,0,45.68,60,3.33333
0.44,44.98,5.5,1114.15,14.23,1.92,19.27,30,0,0,0,45.68,60,3.37296
0.44,44.98,5.5,1114.15,14.23,1.92,19.27,30,0,0,0,45.68,60,3.33333
0.44,38.55,5.5,1114.15,14.23,1.92,25.7,40,0,0,0,45.68,14,2.89701
0.44,38.55,5.5,1114.15,14.23,1.92,25.7,40,0,0,0,45.68,14,2.91961
0.44,38.55,5.5,1114.15,14.23,1.92,25.7,40,0,0,0,45.68,14,2.7442
0.44,38.55,5.5,1114.15,14.23,1.92,25.7,40,0,0,0,45.68,14,1.94035
0.44,38.55,5.5,1114.15,14.23,1.92,25.7,40,0,0,0,45.68,14,2.24843
0.44,38.55,5.5,1114.15,14.23,1.92,25.7,40,0,0,0,45.68,14,1.58412
0.44,38.55,5.5,1114.15,14.23,1.92,25.7,40,0,0,0,45.68,28,3.18151
0.44,38.55,5.5,1114.15,14.23,1.92,25.7,40,0,0,0,45.68,28,1.84072
0.44,38.55,5.5,1114.15,14.23,1.92,25.7,40,0,0,0,45.68,28,3.41821
0.44,38.55,5.5,1114.15,14.23,1.92,25.7,40,0,0,0,45.68,28,2.27906
0.44,38.55,5.5,1114.15,14.23,1.92,25.7,40,0,0,0,45.68,28,3.5589
0.44,38.55,5.5,1114.15,14.23,1.92,25.7,40,0,0,0,45.68,28,3.03562
0.44,38.55,5.5,1114.15,14.23,1.92,25.7,40,0,0,0,45.68,60,3.00818
0.44,38.55,5.5,1114.15,14.23,1.92,25.7,40,0,0,0,45.68,60,3.09843
0.44,38.55,5.5,1114.15,14.23,1.92,25.7,40,0,0,0,45.68,60,3.05755
0.44,38.55,5.5,1114.15,14.23,1.92,25.7,40,0,0,0,45.68,60,3.01887
0.44,38.55,5.5,1114.15,14.23,1.92,25.7,40,0,0,0,45.68,60,2.98585
0.44,38.55,5.5,1114.15,14.23,1.92,25.7,40,0,0,0,45.68,60,3.08176
0.43,32.13,5.5,1114.15,14.23,1.92,32.13,50,0,0,0,45.68,14,2.055
0.43,32.13,5.5,1114.15,14.23,1.92,32.13,50,0,0,0,45.68,14,1.67358
0.43,32.13,5.5,1114.15,14.23,1.92,32.13,50,0,0,0,45.68,14,2.29112
0.43,32.13,5.5,1114.15,14.23,1.92,32.13,50,0,0,0,45.68,14,2.06458
0.43,32.13,5.5,1114.15,14.23,1.92,32.13,50,0,0,0,45.68,14,2.35871
0.43,32.13,5.5,1114.15,14.23,1.92,32.13,50,0,0,0,45.68,14,2.04358
0.43,32.13,5.5,1114.15,14.23,1.92,32.13,50,0,0,0,45.68,28,2.95843
0.43,32.13,5.5,1114.15,14.23,1.92,32.13,50,0,0,0,45.68,28,2.83117
0.43,32.13,5.5,1114.15,14.23,1.92,32.13,50,0,0,0,45.68,28,2.70882
0.43,32.13,5.5,1114.15,14.23,1.92,32.13,50,0,0,0,45.68,28,1.89072
0.43,32.13,5.5,1114.15,14.23,1.92,32.13,50,0,0,0,45.68,28,2.96777
0.43,32.13,5.5,1114.15,14.23,1.92,32.13,50,0,0,0,45.68,28,2.65576
0.43,32.13,5.5,1114.15,14.23,1.92,32.13,50,0,0,0,45.68,60,2.98742
0.43,32.13,5.5,1114.15,14.23,1.92,32.13,50,0,0,0,45.68,60,3.14843
0.43,32.13,5.5,1114.15,14.23,1.92,32.13,50,0,0,0,45.68,60,3.08931
0.43,32.13,5.5,1114.15,14.23,1.92,32.13,50,0,0,0,45.68,60,3.05
0.43,32.13,5.5,1114.15,14.23,1.92,32.13,50,0,0,0,45.68,60,3.14465
0.43,32.13,5.5,1114.15,14.23,1.92,32.13,50,0,0,0,45.68,60,3.07736
0.4,57.83,5.5,1114.15,14.23,1.92,6.42,10,56.84,4.56,10,41.12,14,2.25063
0.4,57.83,5.5,1114.15,14.23,1.92,6.42,10,56.84,4.56,10,41.12,14,2.35849
0.4,57.83,5.5,1114.15,14.23,1.92,6.42,10,56.84,4.56,10,41.12,14,2.35849
0.4,57.83,5.5,1114.15,14.23,1.92,6.42,10,56.84,4.56,10,41.12,14,2.2956
0.4,57.83,5.5,1114.15,14.23,1.92,6.42,10,56.84,4.56,10,41.12,14,2.20126
0.4,57.83,5.5,1114.15,14.23,1.92,6.42,10,56.84,4.56,10,41.12,14,2.30975
0.4,57.83,5.5,1114.15,14.23,1.92,6.42,10,56.84,4.56,10,41.12,28,2.8577
0.4,57.83,5.5,1114.15,14.23,1.92,6.42,10,56.84,4.56,10,41.12,28,3.01887
0.4,57.83,5.5,1114.15,14.23,1.92,6.42,10,56.84,4.56,10,41.12,28,2.7673
0.4,57.83,5.5,1114.15,14.23,1.92,6.42,10,56.84,4.56,10,41.12,28,2.83019
0.4,57.83,5.5,1114.15,14.23,1.92,6.42,10,56.84,4.56,10,41.12,28,2.73585
0.4,57.83,5.5,1114.15,14.23,1.92,6.42,10,56.84,4.56,10,41.12,28,2.89308
0.4,57.83,5.5,1114.15,14.23,1.92,6.42,10,56.84,4.56,10,41.12,60,3.08176
0.4,57.83,5.5,1114.15,14.23,1.92,6.42,10,56.84,4.56,10,41.12,60,3.34119
0.4,57.83,5.5,1114.15,14.23,1.92,6.42,10,56.84,4.56,10,41.12,60,3.14465
0.4,57.83,5.5,1114.15,14.23,1.92,6.42,10,56.84,4.56,10,41.12,60,3.12799
0.4,57.83,5.5,1114.15,14.23,1.92,6.42,10,56.84,4.56,10,41.12,60,3.24686
0.4,57.83,5.5,1114.15,14.23,1.92,6.42,10,56.84,4.56,10,41.12,60,3.14811
0.41,51.41,5.5,1114.15,14.23,1.92,12.85,20,56.84,4.56,10,41.12,14,2.6
0.41,51.41,5.5,1114.15,14.23,1.92,12.85,20,56.84,4.56,10,41.12,14,2.5
0.41,51.41,5.5,1114.15,14.23,1.92,12.85,20,56.84,4.56,10,41.12,14,2.7
0.41,51.41,5.5,1114.15,14.23,1.92,12.85,20,56.84,4.56,10,41.12,14,2.5
0.41,51.41,5.5,1114.15,14.23,1.92,12.85,20,56.84,4.56,10,41.12,14,2.5
0.41,51.41,5.5,1114.15,14.23,1.92,12.85,20,56.84,4.56,10,41.12,14,2.5
0.41,51.41,5.5,1114.15,14.23,1.92,12.85,20,56.84,4.56,10,41.12,28,2.86
0.41,51.41,5.5,1114.15,14.23,1.92,12.85,20,56.84,4.56,10,41.12,28,3
0.41,51.41,5.5,1114.15,14.23,1.92,12.85,20,56.84,4.56,10,41.12,28,2.8
0.41,51.41,5.5,1114.15,14.23,1.92,12.85,20,56.84,4.56,10,41.12,28,2.8
0.41,51.41,5.5,1114.15,14.23,1.92,12.85,20,56.84,4.56,10,41.12,28,3
0.41,51.41,5.5,1114.15,14.23,1.92,12.85,20,56.84,4.56,10,41.12,28,3
0.41,51.41,5.5,1114.15,14.23,1.92,12.85,20,56.84,4.56,10,41.12,60,4.62214
0.41,51.41,5.5,1114.15,14.23,1.92,12.85,20,56.84,4.56,10,41.12,60,3.19035
0.41,51.41,5.5,1114.15,14.23,1.92,12.85,20,56.84,4.56,10,41.12,60,2.26808
0.41,51.41,5.5,1114.15,14.23,1.92,12.85,20,56.84,4.56,10,41.12,60,4.04038
0.41,51.41,5.5,1114.15,14.23,1.92,12.85,20,56.84,4.56,10,41.12,60,4.07182
0.41,51.41,5.5,1114.15,14.23,1.92,12.85,20,56.84,4.56,10,41.12,60,3.25814
0.42,44.98,5.5,1114.15,14.23,1.92,19.27,30,56.84,4.56,10,41.12,14,2
0.42,44.98,5.5,1114.15,14.23,1.92,19.27,30,56.84,4.56,10,41.12,14,2
0.42,44.98,5.5,1114.15,14.23,1.92,19.27,30,56.84,4.56,10,41.12,14,2
0.42,44.98,5.5,1114.15,14.23,1.92,19.27,30,56.84,4.56,10,41.12,14,2
0.42,44.98,5.5,1114.15,14.23,1.92,19.27,30,56.84,4.56,10,41.12,14,2
0.42,44.98,5.5,1114.15,14.23,1.92,19.27,30,56.84,4.56,10,41.12,14,2
0.42,44.98,5.5,1114.15,14.23,1.92,19.27,30,56.84,4.56,10,41.12,28,1.91185
0.42,44.98,5.5,1114.15,14.23,1.92,19.27,30,56.84,4.56,10,41.12,28,2.77417
0.42,44.98,5.5,1114.15,14.23,1.92,19.27,30,56.84,4.56,10,41.12,28,2.57616
0.42,44.98,5.5,1114.15,14.23,1.92,19.27,30,56.84,4.56,10,41.12,28,2.26906
0.42,44.98,5.5,1114.15,14.23,1.92,19.27,30,56.84,4.56,10,41.12,28,2.74175
0.42,44.98,5.5,1114.15,14.23,1.92,19.27,30,56.84,4.56,10,41.12,28,2.13689
0.42,44.98,5.5,1114.15,14.23,1.92,19.27,30,56.84,4.56,10,41.12,60,3.14843
0.42,44.98,5.5,1114.15,14.23,1.92,19.27,30,56.84,4.56,10,41.12,60,3.14465
0.42,44.98,5.5,1114.15,14.23,1.92,19.27,30,56.84,4.56,10,41.12,60,2.98742
0.42,44.98,5.5,1114.15,14.23,1.92,19.27,30,56.84,4.56,10,41.12,60,3.14465
0.42,44.98,5.5,1114.15,14.23,1.92,19.27,30,56.84,4.56,10,41.12,60,3.00503
0.42,44.98,5.5,1114.15,14.23,1.92,19.27,30,56.84,4.56,10,41.12,60,3.05031
0.45,38.55,5.5,1114.15,14.23,1.92,25.7,40,56.84,4.56,10,41.12,14,1.69811
0.45,38.55,5.5,1114.15,14.23,1.92,25.7,40,56.84,4.56,10,41.12,14,1.72956
0.45,38.55,5.5,1114.15,14.23,1.92,25.7,40,56.84,4.56,10,41.12,14,1.7945
0.45,38.55,5.5,1114.15,14.23,1.92,25.7,40,56.84,4.56,10,41.12,14,1.76057
0.45,38.55,5.5,1114.15,14.23,1.92,25.7,40,56.84,4.56,10,41.12,14,1.72629
0.45,38.55,5.5,1114.15,14.23,1.92,25.7,40,56.84,4.56,10,41.12,14,1.71384
0.45,38.55,5.5,1114.15,14.23,1.92,25.7,40,56.84,4.56,10,41.12,28,2.01321
0.45,38.55,5.5,1114.15,14.23,1.92,25.7,40,56.84,4.56,10,41.12,28,2.0739
0.45,38.55,5.5,1114.15,14.23,1.92,25.7,40,56.84,4.56,10,41.12,28,2.1044
0.45,38.55,5.5,1114.15,14.23,1.92,25.7,40,56.84,4.56,10,41.12,28,2.05126
0.45,38.55,5.5,1114.15,14.23,1.92,25.7,40,56.84,4.56,10,41.12,28,1.91918
0.45,38.55,5.5,1114.15,14.23,1.92,25.7,40,56.84,4.56,10,41.12,28,1.90755
0.45,38.55,5.5,1114.15,14.23,1.92,25.7,40,56.84,4.56,10,41.12,60,2.48491
0.45,38.55,5.5,1114.15,14.23,1.92,25.7,40,56.84,4.56,10,41.12,60,2.53616
0.45,38.55,5.5,1114.15,14.23,1.92,25.7,40,56.84,4.56,10,41.12,60,2.76761
0.45,38.55,5.5,1114.15,14.23,1.92,25.7,40,56.84,4.56,10,41.12,60,2.72075
0.45,38.55,5.5,1114.15,14.23,1.92,25.7,40,56.84,4.56,10,41.12,60,2.82233
0.45,38.55,5.5,1114.15,14.23,1.92,25.7,40,56.84,4.56,10,41.12,60,2.71164
0.43,57.83,5.5,1114.15,14.23,1.92,6.42,10,56.84,9.13,20,36.55,14,1.39088
0.43,57.83,5.5,1114.15,14.23,1.92,6.42,10,56.84,9.13,20,36.55,14,1.41509
0.43,57.83,5.5,1114.15,14.23,1.92,6.42,10,56.84,9.13,20,36.55,14,1.47642
0.43,57.83,5.5,1114.15,14.23,1.92,6.42,10,56.84,9.13,20,36.55,14,1.46038
0.43,57.83,5.5,1114.15,14.23,1.92,6.42,10,56.84,9.13,20,36.55,14,1.57233
0.43,57.83,5.5,1114.15,14.23,1.92,6.42,10,56.84,9.13,20,36.55,14,1.51604
0.43,57.83,5.5,1114.15,14.23,1.92,6.42,10,56.84,9.13,20,36.55,28,1.79088
0.43,57.83,5.5,1114.15,14.23,1.92,6.42,10,56.84,9.13,20,36.55,28,1.7434
0.43,57.83,5.5,1114.15,14.23,1.92,6.42,10,56.84,9.13,20,36.55,28,1.86887
0.43,57.83,5.5,1114.15,14.23,1.92,6.42,10,56.84,9.13,20,36.55,28,1.72956
0.43,57.83,5.5,1114.15,14.23,1.92,6.42,10,56.84,9.13,20,36.55,28,1.82075
0.43,57.83,5.5,1114.15,14.23,1.92,6.42,10,56.84,9.13,20,36.55,28,1.76101
0.43,57.83,5.5,1114.15,14.23,1.92,6.42,10,56.84,9.13,20,36.55,60,2.29843
0.43,57.83,5.5,1114.15,14.23,1.92,6.42,10,56.84,9.13,20,36.55,60,2.07421
0.43,57.83,5.5,1114.15,14.23,1.92,6.42,10,56.84,9.13,20,36.55,60,2.15912
0.43,57.83,5.5,1114.15,14.23,1.92,6.42,10,56.84,9.13,20,36.55,60,2.07547
0.43,57.83,5.5,1114.15,14.23,1.92,6.42,10,56.84,9.13,20,36.55,60,2.04403
0.43,57.83,5.5,1114.15,14.23,1.92,6.42,10,56.84,9.13,20,36.55,60,2.08648
0.44,51.41,5.5,1114.15,14.23,1.92,12.85,20,56.84,9.13,20,36.55,14,1.57233
0.44,51.41,5.5,1114.15,14.23,1.92,12.85,20,56.84,9.13,20,36.55,14,1.57233
0.44,51.41,5.5,1114.15,14.23,1.92,12.85,20,56.84,9.13,20,36.55,14,1.72956
0.44,51.41,5.5,1114.15,14.23,1.92,12.85,20,56.84,9.13,20,36.55,14,1.72956
0.44,51.41,5.5,1114.15,14.23,1.92,12.85,20,56.84,9.13,20,36.55,14,2.04403
0.44,51.41,5.5,1114.15,14.23,1.92,12.85,20,56.84,9.13,20,36.55,14,2.04403
0.44,51.41,5.5,1114.15,14.23,1.92,12.85,20,56.84,9.13,20,36.55,28,2.35849
0.44,51.41,5.5,1114.15,14.23,1.92,12.85,20,56.84,9.13,20,36.55,28,3.14465
0.44,51.41,5.5,1114.15,14.23,1.92,12.85,20,56.84,9.13,20,36.55,28,3.14465
0.44,51.41,5.5,1114.15,14.23,1.92,12.85,20,56.84,9.13,20,36.55,28,3.14465
0.44,51.41,5.5,1114.15,14.23,1.92,12.85,20,56.84,9.13,20,36.55,28,3.14465
0.44,51.41,5.5,1114.15,14.23,1.92,12.85,20,56.84,9.13,20,36.55,28,2.51572
0.44,51.41,5.5,1114.15,14.23,1.92,12.85,20,56.84,9.13,20,36.55,60,3.61635
0.44,51.41,5.5,1114.15,14.23,1.92,12.85,20,56.84,9.13,20,36.55,60,3.45912
0.44,51.41,5.5,1114.15,14.23,1.92,12.85,20,56.84,9.13,20,36.55,60,3.42767
0.44,51.41,5.5,1114.15,14.23,1.92,12.85,20,56.84,9.13,20,36.55,60,3.49057
0.44,51.41,5.5,1114.15,14.23,1.92,12.85,20,56.84,9.13,20,36.55,60,3.33333
0.44,51.41,5.5,1114.15,14.23,1.92,12.85,20,56.84,9.13,20,36.55,60,3.39623
0.44,44.98,5.5,1114.15,14.23,1.92,19.27,30,56.84,9.13,20,36.55,14,1.41509
0.44,44.98,5.5,1114.15,14.23,1.92,19.27,30,56.84,9.13,20,36.55,14,1.57233
0.44,44.98,5.5,1114.15,14.23,1.92,19.27,30,56.84,9.13,20,36.55,14,1.57233
0.44,44.98,5.5,1114.15,14.23,1.92,19.27,30,56.84,9.13,20,36.55,14,1.72956
0.44,44.98,5.5,1114.15,14.23,1.92,19.27,30,56.84,9.13,20,36.55,14,2.04403
0.44,44.98,5.5,1114.15,14.23,1.92,19.27,30,56.84,9.13,20,36.55,14,2.04403
0.44,44.98,5.5,1114.15,14.23,1.92,19.27,30,56.84,9.13,20,36.55,28,2.51572
0.44,44.98,5.5,1114.15,14.23,1.92,19.27,30,56.84,9.13,20,36.55,28,2.67296
0.44,44.98,5.5,1114.15,14.23,1.92,19.27,30,56.84,9.13,20,36.55,28,2.20126
0.44,44.98,5.5,1114.15,14.23,1.92,19.27,30,56.84,9.13,20,36.55,28,2.51572
0.44,44.98,5.5,1114.15,14.23,1.92,19.27,30,56.84,9.13,20,36.55,28,2.35849
0.44,44.98,5.5,1114.15,14.23,1.92,19.27,30,56.84,9.13,20,36.55,28,2.67296
0.44,44.98,5.5,1114.15,14.23,1.92,19.27,30,56.84,9.13,20,36.55,60,2.35849
0.44,44.98,5.5,1114.15,14.23,1.92,19.27,30,56.84,9.13,20,36.55,60,2.51572
0.44,44.98,5.5,1114.15,14.23,1.92,19.27,30,56.84,9.13,20,36.55,60,2.67296
0.44,44.98,5.5,1114.15,14.23,1.92,19.27,30,56.84,9.13,20,36.55,60,2.67296
0.44,44.98,5.5,1114.15,14.23,1.92,19.27,30,56.84,9.13,20,36.55,60,2.98742
0.44,44.98,5.5,1114.15,14.23,1.92,19.27,30,56.84,9.13,20,36.55,60,3.14465
0.44,38.55,5.5,1114.15,14.23,1.92,25.7,40,56.84,9.13,20,36.55,14,1.57233
0.44,38.55,5.5,1114.15,14.23,1.92,25.7,40,56.84,9.13,20,36.55,14,1.57233
0.44,38.55,5.5,1114.15,14.23,1.92,25.7,40,56.84,9.13,20,36.55,14,1.88679
0.44,38.55,5.5,1114.15,14.23,1.92,25.7,40,56.84,9.13,20,36.55,14,2.04403
0.44,38.55,5.5,1114.15,14.23,1.92,25.7,40,56.84,9.13,20,36.55,14,2.04403
0.44,38.55,5.5,1114.15,14.23,1.92,25.7,40,56.84,9.13,20,36.55,14,2.04403
0.44,38.55,5.5,1114.15,14.23,1.92,25.7,40,56.84,9.13,20,36.55,28,2.20126
0.44,38.55,5.5,1114.15,14.23,1.92,25.7,40,56.84,9.13,20,36.55,28,2.10692
0.44,38.55,5.5,1114.15,14.23,1.92,25.7,40,56.84,9.13,20,36.55,28,2.13836
0.44,38.55,5.5,1114.15,14.23,1.92,25.7,40,56.84,9.13,20,36.55,28,2.13836
0.44,38.55,5.5,1114.15,14.23,1.92,25.7,40,56.84,9.13,20,36.55,28,2.20126
0.44,38.55,5.5,1114.15,14.23,1.92,25.7,40,56.84,9.13,20,36.55,28,2.20126
0.44,38.55,5.5,1114.15,14.23,1.92,25.7,40,56.84,9.13,20,36.55,60,2.35849
0.44,38.55,5.5,1114.15,14.23,1.92,25.7,40,56.84,9.13,20,36.55,60,2.35849
0.44,38.55,5.5,1114.15,14.23,1.92,25.7,40,56.84,9.13,20,36.55,60,2.51572
0.44,38.55,5.5,1114.15,14.23,1.92,25.7,40,56.84,9.13,20,36.55,60,2.51572
0.44,38.55,5.5,1114.15,14.23,1.92,25.7,40,56.84,9.13,20,36.55,60,2.51572
0.44,38.55,5.5,1114.15,14.23,1.92,25.7,40,56.84,9.13,20,36.55,60,2.83019